FFT,Power Spectrum
Frequency[Hz],Level-L[dB],Level-R[dB]
43.066,69.857,70.168
86.133,68.907,69.235
129.2,69.318,69.712
172.27,69.493,69.877
215.33,68.845,69.176
258.4,62.031,62.625
301.46,90.069,90.646
344.53,108.92,109.49
387.6,109.85,110.42
430.66,94.289,94.846
473.73,64.188,64.485
516.8,68.236,68.902
559.86,69.326,69.995
602.93,68.89,69.54
646,68.4,69.042
689.06,72.219,73.697
732.13,79.783,81.97
775.2,75.133,76.95
818.26,67.192,67.777
861.33,67.473,68.035
904.39,67.287,67.766
947.46,67.133,67.625
990.53,63.097,63.808
1033.6,82.218,82.494
1076.7,105.28,105.59
1119.7,108.07,108.38
1162.8,95.322,95.632
1205.9,66.697,67.148
1248.9,65.146,65.371
1292,66.125,66.567
1335.1,65.9,66.187
1378.1,65.795,66.1
1421.2,66.275,68.021
1464.3,71.292,77.147
1507.3,69.422,73.836
1550.4,66.184,66.533
1593.5,66.878,67.017
1636.5,66.696,66.752
1679.6,67.343,67.295
1722.7,63.534,63.612
1765.7,80.924,80.783
1808.8,109.72,109.6
1851.9,114.44,114.32
1894.9,104.12,104
1938,70.969,70.96
1981.1,64.819,64.822
2024.1,66.908,66.893
2067.2,66.094,65.938
2110.3,65.805,65.764
2153.3,67.562,65.835
2196.4,79.079,75.227
2239.5,77.525,73.514
2282.5,63.802,63.24
2325.6,61.498,61.438
2368.7,61.802,61.768
2411.7,60.064,60.187
2454.8,61.728,61.611
2497.9,64.159,63.225
2540.9,99.857,97.301
2584,106.59,104.05
2627.1,98.472,95.93
2670.1,58.548,59.268
2713.2,58.424,58.398
2756.3,58.74,58.912
2799.3,57.825,57.716
2842.4,57.923,58.096
2885.4,57.762,58.846
2928.5,65.448,69.954
2971.6,65.922,70.646
3014.6,56.858,57.973
3057.7,56.148,56.503
3100.8,55.865,56.351
3143.8,55.64,56.19
3186.9,55.404,56.147
3230,55.19,55.75
3273,57.636,58.37
3316.1,62.641,64.826
3359.2,58.84,59.858
3402.2,54.374,55.283
3445.3,54.207,55.259
3488.4,54.094,55.112
3531.4,53.843,55.06
3574.5,53.698,55.001
3617.6,52.883,54.76
3660.6,66.067,62.135
3703.7,66.817,62.741
3746.8,57.685,56.42
3789.8,53.065,55.026
3832.9,53.043,55.037
3876,52.585,54.986
3919,52.568,55.002
3962.1,52.812,55.308
4005.2,77.049,78.999
4048.2,88.14,90.169
4091.3,84.093,86.082
4134.4,58.35,61.14
4177.4,51.593,54.799
4220.5,51.978,55.794
4263.6,51.7,55.646
4306.6,51.883,56.419
4349.7,51.556,56.371
4392.8,51.949,65.846
4435.8,55.667,70.012
4478.9,51.493,61.145
4522,51.61,58.274
4565,52.331,59.863
4608.1,51.654,59.229
4651.2,51.254,58.75
4694.2,53.093,58.463
4737.3,78.015,87.701
4780.4,91.585,101.37
4823.4,89.459,99.219
4866.5,67.85,77.759
4909.6,51.245,56.995
4952.6,52.598,58.743
4995.7,53.079,60.764
5038.8,52.358,58.721
5081.8,52.406,58.589
5124.9,68.127,66.78
5168,74.21,72.534
5211,65.216,64.415
5254.1,50.848,57.192
5297.2,50.924,57.363
5340.2,50.368,57.239
5383.3,50.715,56.889
5426.4,50.089,56.172
5469.4,67.461,76.816
5512.5,83.686,93.342
5555.6,83.42,93.067
5598.6,65.692,75.479
5641.7,49.972,55.459
5684.8,49.327,58.048
5727.8,50.019,57.38
5770.9,49.574,57.963
5814,49.461,57.655
5857,51.9,67.692
5900.1,58.247,75.523
5943.2,52.709,69.058
5986.2,49.076,59.23
6029.3,48.92,60.458
6072.4,49.022,60.233
6115.4,48.981,60.187
6158.5,49.76,57.019
6201.6,67.893,80.412
6244.6,87.421,100.33
6287.7,89.065,101.89
6330.8,74.33,87.355
6373.8,50.182,60.309
6416.9,51.743,59.628
6460,53.113,61.419
6503,51.514,58.967
6546.1,52.637,59.869
6589.2,53.822,60.737
6632.2,62.462,69.131
6675.3,57.832,64.295
6718.4,50.975,57.396
6761.4,51.135,57.551
6804.5,50.553,56.23
6847.6,51.031,58.01
6890.6,50.114,54.675
6933.7,62.057,69.734
6976.8,86.284,93.782
7019.8,89.737,97.209
7062.9,77.871,85.343
7106,50.42,57.419
7149,50.191,53.344
7192.1,49.919,54.908
7235.2,49.368,53.392
7278.2,49.654,53.546
7321.3,48.683,54.628
7364.4,51.044,63.315
7407.4,48.993,60.562
7450.5,48.215,51.303
7493.6,48.097,50.962
7536.6,47.816,50.626
7579.7,47.791,50.066
7622.8,47.439,49.891
7665.8,47.677,50.254
7708.9,57.813,61.72
7752,63.737,68.055
7795,53.84,57.531
7838.1,47.292,48.927
7881.2,47.004,48.418
7924.2,46.74,48.842
7967.3,46.853,48.162
8010.4,46.76,48.327
8053.4,46.944,49.028
8096.5,46.554,58.308
8139.6,48.719,57.292
8182.6,46.43,47.934
8225.7,46.202,47.547
8268.8,46.279,47.648
8311.8,46.137,47.124
8354.9,46.619,47.211
8397.9,47.313,46.831
8441,68.669,59.011
8484.1,76.165,66.593
8527.1,68.759,58.997
8570.2,46.512,46.344
8613.3,45.718,46.73
8656.3,46.041,46.564
8699.4,45.549,46.179
8742.5,45.911,46.438
8785.5,45.489,46.34
8828.6,45.281,45.998
8871.7,45.938,46.212
8914.7,45.465,46.14
8957.8,45.35,45.742
9000.9,45.36,46.036
9043.9,45.358,45.743
9087,45.229,45.714
9130.1,45.385,45.714
9173.1,54.823,52.364
9216.2,63.214,60.879
9259.3,58.538,55.958
9302.3,45.28,45.554
9345.4,45.378,45.615
9388.5,44.856,45.044
9431.5,45.144,45.311
9474.6,45.068,45.269
9517.7,45.161,44.988
9560.7,44.829,46.741
9603.8,46.224,47.286
9646.9,45.211,45.104
9689.9,45.216,44.825
9733,45.566,44.87
9776.1,44.847,44.687
9819.1,45.82,44.797
9862.2,44.414,44.746
9905.3,68.938,47.913
9948.3,80.849,56.408
9991.4,77.435,53.78
10034,53.813,44.358
10078,44.551,44.433
10121,44.644,44.593
10164,44.682,44.207
10207,44.469,44.212
10250,44.092,44.347
10293,44.778,46.232
10336,50.648,50.503
10379,43.766,44.285
10422,45.515,44.069
10465,45.475,43.903
10508,45.056,44.107
10551,46.17,43.972
10594,48.241,43.621
10637,71.173,55.129
10680,85.406,68.394
10724,83.956,67.129
10767,63.786,47.328
10810,46.383,43.678
10853,47.849,44.413
10896,48.454,44.163
10939,47.213,44.212
10982,47.541,43.973
11025,48.373,51.231
11068,52.306,58.361
11111,47.515,49.996
11154,46.413,43.8
11197,45.469,43.747
11240,46.208,44.005
11283,45.06,43.831
11326,45.409,43.457
11370,56.27,54.395
11413,72.986,71.125
11456,73.342,71.495
11499,57.226,55.203
11542,44.925,44.204
11585,44.578,43.546
11628,44.93,43.898
11671,44.214,43.536
11714,44.755,43.474
11757,45.07,46.573
11800,47.92,51.614
11843,45.921,47.614
11886,44.146,43.34
11929,44.138,43.443
11972,44.022,43.383
12016,43.812,43.222
12059,43.794,43.219
12102,43.61,47.075
12145,59.985,66.264
12188,61.386,68.374
12231,50.628,55.494
12274,43.348,43.068
12317,43.534,43.188
12360,43.374,42.977
12403,43.375,43.305
12446,42.93,42.943
12489,43.034,43.697
12532,44.801,46.269
12575,42.946,44.785
12618,43.088,42.935
12662,43.193,43.95
12705,42.938,43.197
12748,43.057,43.867
12791,43.099,44.292
12834,43.183,50.255
12877,48.821,74.944
12920,53.869,78.936
12963,44.653,68.078
13006,42.764,46.182
13049,42.925,42.656
13092,42.923,42.529
13135,42.74,42.35
13178,42.97,41.462
13221,42.706,42.174
13264,42.6,43.112
13308,42.872,41.548
13351,42.571,42.095
13394,42.793,41.791
13437,42.647,41.837
13480,42.468,41.719
13523,42.918,41.82
13566,42.42,41.755
13609,54.135,48.835
13652,60.199,53.722
13695,51.779,46.813
13738,42.272,41.901
13781,42.384,41.682
13824,42.527,41.395
13867,42.539,41.706
13910,42.468,41.79
13954,42.147,41.583
13997,43.007,41.344
14040,42.73,41.912
14083,42.32,41.533
14126,42.077,41.542
14169,42.53,41.623
14212,42.284,41.484
14255,42.425,41.283
14298,45.454,41.771
14341,65.734,45.018
14384,73.802,51.117
14427,67.23,46.117
14470,44.353,40.951
14513,42.125,41.776
14556,42.971,41.385
14600,41.941,41.378
14643,42.369,41.286
14686,42.246,41.232
14729,43.038,41.815
14772,41.939,41.069
14815,42.689,41.673
14858,42.111,41.003
14901,42.233,41.35
14944,42.408,41.239
14987,42.475,41.525
15030,43.714,41.309
15073,61.852,53.149
15116,72.244,63.543
15159,67.5,58.71
15202,46.564,42.852
15246,41.586,40.868
15289,42.067,41.038
15332,41.186,41.189
15375,41.687,41.065
15418,41.65,41.01
15461,41.867,40.881
15504,41.946,41.227
15547,41.4,41.053
15590,41.568,40.855
15633,41.692,41.254
15676,41.454,41.044
15719,41.402,40.855
15762,42.168,41.201
15805,49.216,45.173
15848,60.419,54.242
15892,58.186,52.421
15935,42.273,40.887
15978,41.714,41.138
16021,41.548,41.136
16064,41.814,41.028
16107,41.382,40.974
16150,41.572,40.867
16193,41.615,41
16236,41.766,41.115
16279,41.484,40.886
16322,41.719,40.634
16365,41.425,41.185
16408,41.428,40.368
16451,41.752,41.215
16494,41.341,40.555
16538,46.73,44.003
16581,59.922,55.355
16624,59.317,55.031
16667,42.812,40.568
16710,41.381,40.608
16753,41.96,41.155
16796,41.212,40.719
16839,41.672,40.526
16882,41.569,41.005
16925,41.525,40.843
16968,42.202,43.272
17011,41.736,40.956
17054,41.479,40.689
17097,41.64,40.662
17140,41.784,41.169
17183,41.294,40.534
17227,41.41,40.428
17270,46.882,41.427
17313,64.088,55.977
17356,64.735,56.194
17399,50.941,44.874
17442,41.806,40.365
17485,40.712,40.3
17528,41.196,40.96
17571,40.698,39.879
17614,40.704,40.869
17657,40.61,40.141
17700,46.164,40.907
17743,41.434,40.108
17786,40.977,40.726
17829,40.902,40.256
17873,40.738,40.663
17916,40.812,40.265
17959,40.97,40.463
18002,40.452,40.473
18045,41.58,41.195
18088,41.852,43.273
18131,41.146,40.474
18174,40.61,40.52
18217,40.762,40.366
18260,41.009,40.275
18303,40.829,40.547
18346,40.692,40.362
18389,40.948,40.675
18432,42.31,40.561
18475,41.596,40.828
18519,40.535,40.204
18562,40.66,40.655
18605,41.269,40.554
18648,40.512,41.108
18691,41.306,40.569
18734,42.564,43.969
18777,63.252,67.078
18820,68.204,71.696
18863,57.862,61.735
18906,41.704,42.734
18949,40.822,40.549
18992,41.209,40.718
19035,41.273,40.482
19078,40.902,39.9
19121,40.633,40.994
19165,43.452,41.987
19208,39.422,43.283
19251,41.449,40.163
19294,41.039,40.52
19337,40.904,39.806
19380,41.286,40.765
19423,41.292,39.599
19466,42.255,42.24
19509,63.713,62.356
19552,70.321,68.695
19595,62.522,61.039
19638,39.901,42.076
19681,41.272,40.572
19724,40.856,39.644
19767,40.922,40.75
19811,40.715,39.658
19854,40.803,39.975
19897,41.233,40.14
19940,40.311,40.224
19983,40.779,39.829
20026,40.747,40.09
20069,40.825,40.218
20112,40.595,39.727
20155,40.496,40.432
20198,40.511,39.747
20241,49.45,41.138
20284,57.923,44.754
20327,52.186,41.814
20370,40.467,40.085
20413,40.819,39.906
20457,40.604,40.028
20500,40.387,40.029
20543,41.184,39.851
20586,40.261,40.025
20629,41.034,40.222
20672,40.764,39.825
20715,40.745,40.379
20758,40.659,39.698
20801,40.459,40.179
20844,43.691,41.327
20887,40.714,42.031
20930,41.048,39.865
20973,44.374,43.042
21016,55.273,51.116
21059,50.715,47.781
21103,41.557,40.337
21146,40.635,40.345
21189,40.505,39.714
21232,40.408,39.96
21275,40.532,40.076
21318,40.744,40.096
21361,40.402,39.883
21404,40.619,39.866
21447,40.405,40.356
21490,40.685,39.617
21533,40.383,40.232
21576,42.647,39.673
21619,42.306,40.677
21662,40.862,39.482
21705,42.867,40.111
21749,53.238,49.566
21792,51.354,45.826
21835,41.159,40.484
21878,40.764,39.992
21921,40.503,39.8
21964,40.423,39.856
22007,40.822,39.956
